Folder: qxrd/Samples/PowderCalibrations

Note: README
****** QXRD Change Log ******
See also QXRD_Git_Log
***** v0.7.6 - Jun 22 2011 *****
Implement gain /flat field correction during acquisition
***** v0.7.5 - Jun 6 2011 *****
Improved responsiveness for file browser windows when displaying many files
***** v0.7.4 - Jun 6 2011 *****
Delayed initialization option for acquisition
***** v0.7.3 - Jun 6 2011 *****
Improved debugging messages.
***** v0.7.2 - May 29 2011 *****
Mainly internal code reorganization
***** v0.5.24 - Apr 19 2011 *****
Changed PE Acquisition - call Acquisition_CloseAll at QXRD exit, fixed bug in
setting lower bound exposure time
***** v0.5.23 - Apr 11 2011 *****
Documentation upgrade. Added release notes to embedded documentation
Changed PE acquisition - added lower bound to exposure times based on values
returned by Acquire_GetIntTimes call to XISL library
Allow setting exposure time from fresh start options dialog
***** v0.5.22 - Apr 7 2011 *****
Changes in PE acquisition initialization to support more PE detector types
***** v0.5.21 - Apr 6 2011 *****
Pre-triggered acquisition should be working again.
Changes to file browser window, including a refresh button. File browser
windows do not auto-update you must click the refresh button.
Show/Hide Rng... buttons now work in masking dialog
More info saved in acquired files - Qxrd and Qt version numbers - also more
shown in info dialog
***** v0.5.20 - Apr 4 2011 *****
fixed problems with image accumulation.
an initial implementation of a file browser that is more responsive when there
are many files in a directory.
load and save preferences commands which transfer application preferences to/
from files.
***** v0.5.19 - Mar 30 2011 *****
allows setting some preferences before the application starts. To activate this
pass the command line argument '-fresh' when starting QXRD. On windows there's
an extra in the start menu to do this automatically.
***** v0.5.18 - Mar 25 2011 *****
contains fixes for an acquisition problem caused by not resetting exposure
counts
***** v0.5.17 - Mar 22 2011 *****
contains fixes and changes to the 'synchronized acquisition' mode
Added a 'bipolar triangle' waveform. Added nidaq.getAnalogInput and
nidaq.setAnalogOutput script commands. Added display of syncronization waveform
to UI
***** v0.5.16 - Mar 14 2011 *****
mainly involves a major re-write of the acquisition code to support
'synchronized' acquisition.
This involves taking 'groups' of images while varying an external programming
voltage (using a supported National Instruments NI-DAQ card). You specify the
number of images in a group and then QXRD adds together multiple cycles of
acquired images in phase with the output waveform.
The acquisition code does not currently support the pre-trigger acquisition
mode of earlier versions. I was hoping to remove this, but it seems that people
are actually using it so I had better put it back in. The functions and
parameters are there, but they don't do anything at the moment.

File: 11BM_NAC.xy
XYDATA
! Title: NAC /nov12/11bmb_1804
! Run no. =               1804
! No. steps =             54000
! Scan time =             NOV 29, 2012 18:07:11.0256
! Sample Comment =        NAC
! User sample name =      1.5 mm diameter
! Composition =           Na2Ca3Al2F14
! Temp (K) =              298.0
! Start 2theta (deg) =    -16.0
! End 2theta (deg) =      38.0
! 2theta step (deg) =     0.001
! Time per step (sec) =   0.1
! Intensity scale =       9383.83
! Calibration file =      11bmb_1800_2thcorrected.calib
! 2Theta correction subtracted
! Calibrated wavelength = 0.413909
! Fullprof format INSTRM=10 (x, y, sigma)
INTER 1.0 1.0  2 0.00100
! ---------------------------------------
! degrees       intensity        sigma
0.50000       239.9326        16.0755
0.73097       320.2118        18.5656
0.96194       323.2214        18.7122
1.19291       273.8211        17.2302
1.42388       278.0145        17.3959
1.65485       272.5245        17.2139
1.88582       182.9756        14.0753
2.11679       178.4235        13.1454
2.34776       165.3049        12.6820
2.57873       186.1292        13.5120
2.80970       167.1223        12.8300
3.04067       178.2281        13.2602
3.27164     46551.1       213.9840
3.50261       171.6182        12.8905
3.73358       187.4379        13.5048
3.96455       180.4229        13.1774
4.19552       215.4660        13.7767
4.42649       238.0901        14.5252
4.65746       326.2220        17.0473
4.88843       288.6443        15.9666
5.11940       284.1484        15.8144
5.35037       266.0787        15.2678
5.58134       325.0023        16.9223
5.81231       247.0430        14.8122
6.04328       223.7503        13.3987
6.27425       237.2919        13.8052
6.50522       415.1789        18.3265
6.73619       244.3646        14.0219
6.96716       247.1118        14.0877
7.19813       228.1335        13.5555
7.42910       256.7361        14.3415
7.66007       220.6373        13.3588
7.89104       246.2850        14.0634
8.12201       252.7155        14.2782
8.35298       247.9360        14.1435
8.58395       259.4963        14.5000
8.81492       248.8310        14.1613
9.04590       228.2988        13.5238
9.27687       269.9538        14.7494
9.50784       232.9346        13.6870
9.73881       308.6436        15.8144
9.96978       278.6265        14.9736
10.20075       271.1122        14.7687
10.43172       290.3062        15.3132
10.66269       292.1783        15.3291
10.89366      1029.46        28.7719
11.12463       312.4998        15.8324
11.35560      2902.94        48.0578
11.58657       353.9600        16.9118
11.81754    258213       456.6428
12.04851       380.8418        17.4819
12.27948       576.2227        21.5626
12.51045       382.1403        17.5390
12.74142       574.5793        21.5814
12.97239       374.9389        17.3712
13.20336       391.3852        17.7679
13.43433       386.8864        17.6571
13.66530       343.1689        16.6575
13.89627       526.4717        20.5925
14.12724       365.4265        17.2114
14.35821       461.6835        19.2580
14.58918       356.0984        16.9789
14.82015       356.1911        16.9902
15.05112       718.3747        24.0418
15.28209       354.4782        16.9334
15.51306       357.1977        16.9558
15.74403      6572.66        72.4184
15.97500       346.2307        16.7841
16.20597       337.4765        16.4345
16.43694       429.7772        18.6324
16.66791       355.1845        16.9090
16.89888       336.9043        16.5209
17.12985       333.5865        16.4273
17.36082       611.6320        22.1581
17.59179       335.9130        16.4506
17.82276       336.7382        16.4471
18.05373       344.9942        16.6799
18.28470      2589.78        45.5750
18.51567       329.9411        16.2726
18.74664       355.4620        16.9053
18.97761       399.3649        17.8935
19.20858       399.7989        17.9273
19.43955      1595.95        35.8271
19.67052       398.5320        17.9536
19.90149       380.0075        17.4653
20.13246       388.6347        17.6893
20.36343       383.1086        17.5921
20.59440       413.2010        18.2861
20.82537       644.6054        22.8278
21.05634      1004.8        28.3936
21.28731       454.8042        19.1633
21.51828       492.2571        19.9402
21.74925       400.6844        17.9957
21.98022       415.6047        18.2698
22.21119       397.0213        17.9283
22.44216       377.9615        17.4665
22.67313       465.2417        19.3902
22.90410       383.3941        17.5949
23.13507       359.9020        17.0105
23.36604       362.8187        17.1112
23.59701       363.3717        17.0921
23.82798       370.1952        17.2657
24.05895       363.4939        17.1160
24.28992       362.2335        17.0177
24.52089       375.5662        17.4143
24.75186       434.4452        18.7194
24.98283       377.0456        17.5029
25.21380       367.8884        17.1811
25.44477       351.2427        16.8129
25.67575       407.3223        18.1668
25.90672       489.5007        19.8047
26.13769       376.9651        17.4736
26.36866       377.1660        17.4787
26.59963       367.1364        17.1652
26.83060       546.7923        21.0407
27.06157       400.5296        17.9524
27.29254       381.3126        17.5207
27.52351       351.6632        16.8271
27.75448       332.0745        16.3938
27.98545       388.1553        17.7093
28.21642       428.5289        18.5878
28.44739       428.0359        18.5990
28.67836       356.9889        17.0046
28.90933       329.1225        16.2710
29.14030       354.1104        16.8431
29.37127       391.1150        17.7340
29.60224       456.3135        19.1000
29.83321       399.9626        18.0154
30.06418       364.3670        17.1787
30.29515       390.3644        17.6892
30.52612      2569.05        45.4621
30.75709       398.2111        17.8952
30.98806       379.5878        17.5099
31.21903       393.7687        17.8378
31.45000       504.5791        20.1862
31.68097       412.1053        18.2770
31.91194       384.2533        17.5853
32.14291       395.5970        17.8608
32.37388       384.3068        17.5800
32.60485       400.9428        17.9917
32.83582      2184.96        42.0615
33.06679       379.8326        17.4640
33.29776       395.1977        17.8288
33.52873       473.7387        19.5723
33.75970       361.8204        17.0281
33.99067       372.9060        17.3327
34.22164       389.8691        17.7687
34.45261       345.7949        16.7208
34.68358      2824.69        47.8033
34.91455       363.6885        17.1258
35.14552       354.2453        16.9193
35.37649       320.3458        16.0640
35.60746       351.7913        16.8184
35.83843       365.0822        17.1752
36.06940       345.8543        16.6653
36.30037       585.0339        21.7661
36.53134       336.4461        16.4757
36.76231      1134.79        30.2767
36.99328       355.7866        16.8980
37.22425      1124.38        30.1199
37.45522       349.8891        16.8355
37.68619       591.0898        21.8917
37.91716       363.3861        17.1633
38.14813      1023.22        29.8301
38.37910       356.4530        17.6181
38.61007       335.8742        17.1733
38.84104       361.4763        17.7856
39.07201       348.9838        17.4145
39.30298       344.9832        17.3502
39.53395       358.9425        17.6590
39.76492       349.6397        17.4752
39.99589       337.7419        17.9708
40.22686       497.2935        21.7566
40.45783       327.0653        17.6475
40.68880       355.2152        18.4686
40.91977       347.8720        18.2227
41.15074       347.4834        18.1802
41.38171       350.9600        18.3341
41.61268       436.2966        20.4270
41.84365       342.9939        18.1193
42.07462       337.7965        19.0026
42.30560       320.0629        18.3942
42.53657       324.4283        18.5090
42.76754       418.6410        21.0194
42.99851       329.0896        18.6507
43.22948       303.2042        17.9248
43.46045       331.5972        18.7779
43.69142       333.8201        18.8023
43.92239       307.5682        17.9701
44.15336       328.4064        19.6222
44.38433      1004.64        34.2073
44.61530       323.2348        19.3949
44.84627       316.6671        19.1857
45.07724       289.5547        18.2599
45.30821       445.3702        22.8031
45.53918       314.0644        19.2194
45.77015       305.2362        18.9333
46.00112       313.2741        20.2472
46.23209       391.5174        22.5257
46.46306       296.8833        19.6534
46.69403       289.5761        19.4984
46.92500       293.6412        19.5200
47.15597       295.6472        19.5736
47.38694       314.7756        20.1950
47.61791       259.7647        18.3148
47.84888       283.1847        19.2318
48.07985       273.9467        20.2946
48.31082       254.8231        19.6009
48.54179       259.9943        19.9027
48.77276       301.9431        21.4381
49.00373       426.6428        25.4041
49.23470       282.5511        20.6809
49.46567       278.6302        20.5585
49.69664       218.2601        18.1489
49.92761       266.9588        20.1170
50.15858       246.4854        21.3232
50.38955       219.3376        20.1056
50.62052       243.0544        21.2399
50.85149       270.6257        22.3772
51.08246       392.5950        27.0077
51.31343       278.9152        22.7959
51.54440       277.6673        22.6104
51.77537       256.3555        21.8206
52.00634       209.8662        21.7801
52.23731       282.0928        25.2247
52.46828       183.0712        20.3824
52.69925       228.3203        22.8140
52.93022       217.2827        22.0364
53.16119       225.6545        22.5876
53.39216       276.9070        25.0497
53.62313       258.7479        24.2884
53.85410       236.1317        23.0954
54.08507       236.1227        27.1249
54.31604       245.0786        27.6944
54.54701       233.9111        27.0285
54.77798       202.7697        25.1762
55.00895       207.9076        25.4983
55.23992       239.2484        27.2374
55.47089       195.4236        24.6606
55.70186       204.1827        25.2272
55.93283       184.0739        23.9708
56.16380       244.8937        33.4838
56.39477       211.5164        31.0660
56.62574       270.6207        35.0403
56.85671       224.2050        31.9857
57.08768       206.9383        30.5840
57.31865       202.4482        30.2734
57.54962       211.1353        30.9776
57.78059       206.3143        30.5261
58.01156       193.5243        41.8799
58.24253       184.3546        41.1763
58.47350       185.1800        41.3629
58.70447       148.3091        36.9394
58.93545       205.4148        43.4504
59.16642       202.5188        42.7129
59.39739       221.4174        45.2165
59.62836       175.3607        40.2305
59.85933       148.1074        36.7006
59.98931       205.5382        43.0983

File: 11BM_Si640c.xy
XYDATA
! Title:  From feb10/11bmb_4918.mda processed @ 10-02-26 15:06
INTER 1.0 1.0 2 0.0010
TEMP 295.0
! Run no. =               4918
! No. steps =             34000
! Scan time =             FEB 25, 2010 17:14:00.580709
! Sample name =           Silicon (Si), NIST SRM 640c
! Chemical formula =      Si
! Start 2theta =          -6.0
! End 2theta =            28.0
! 2theta step=            0.001
! Time per step =         0.1
! Intensity scale =       5889.57
! Calibration file =      feb10/11bmb_4917.calib
! Calibrated wavelength = 0.412359
!
! 2theta, intensity, sigma(intensity)
0.500000 1015.79 46.5001
0.665000 587.133 35.4598
0.830000 463.013 31.4089
0.995000 357.907 27.5839
1.160000 282.996 24.5249
1.325000 295.713 25.0904
1.490000 318.242 26.0109
1.655000 276.945 24.1931
1.820000 200.935 20.648
1.985000 170.67 18.9744
2.150000 192.272 18.0923
2.315000 171.901 17.212
2.480000 173.007 17.1532
2.645000 144.841 15.7939
2.810000 145.707 15.7544
2.975000 160.916 16.5828
3.140000 143.021 15.7211
3.305000 139.077 15.4479
3.470000 141.968 15.5992
3.635000 127.16 14.7081
3.800000 146.576 15.8321
3.965000 135.926 15.2393
4.130000 178.987 15.8871
4.295000 162.396 15.0556
4.460000 177.791 15.7192
4.625000 181.204 15.9477
4.790000 199.629 16.7286
4.955000 200.29 16.7395
5.120000 250.294 18.7288
5.285000 219.177 17.487
5.450000 194.362 16.5165
5.615000 188.624 16.2247
5.780000 162.138 15.006
5.945000 160.159 14.959
6.110000 167.359 14.0207
6.275000 152.613 13.3343
6.440000 134.626 12.5335
6.605000 123.162 12.0068
6.770000 154.443 13.4863
6.935000 146.822 13.1479
7.100000 140.063 12.8424
7.265000 140.581 12.8278
7.430000 190.567 14.8209
7.595000 414.004 22.0035
7.760000 109.567 11.2409
7.925000 107.85 11.2526
8.090000 101.059 10.1751
8.255000 90.0446 9.594169
8.420000 96.8117 9.917869
8.585000 85.5147 9.346074
8.750000 87.3878 9.465874
8.915000 76.3825 8.894258
9.080000 75.843 8.790048
9.245000 73.8354 8.676319
9.410000 84.3103 9.303877
9.575000 97.8246 10.0034
9.740000 80.837 9.089653
9.905000 98.1636 10.0342
10.07 89.4692 8.862856
10.235 82.9248 8.601045
10.4 83.3147 8.468337
10.565 81.3532 8.538826
10.73 65.5171 7.637165
10.895 88.0669 8.842371
11.06 93.2152 9.127457
11.225 82.355 8.585464
11.39 89.6597 8.913478
11.555 99.3965 9.433663
11.72 92.6831 9.025354
11.885 106.137 9.721828
12.05 109.868 9.353384
12.215 140.714 10.6174
12.38 397.464 17.9233
12.545 112.5 9.465369
12.71 126.072 10.0819
12.875 113.783 9.594264
13.04 95.6462 8.747518
13.205 99.9122 8.975470
13.37 84.8924 8.260441
13.535 93.6786 8.721918
13.7 97.352 8.873831
13.865 94.469 8.664450
14.03 101.286 8.643371
14.195 106.941 8.794170
14.36 116.496 9.232062
14.525 226.703 12.8843
14.69 98.7914 8.443597
14.855 87.9084 8.010492
15.02 79.8292 7.554276
15.185 74.5307 7.361594
15.35 81.4641 7.710280
15.515 80.298 7.673031
15.68 73.2545 7.272091
15.845 75.8717 7.386705
16.01 72.1122 6.948741
16.175 68.0143 6.689705
16.34 72.1812 6.911572
16.505 81.9398 7.373030
16.67 77.1997 7.127575
16.835 73.7089 7.029736
17 63.2824 6.480563
17.165 70.9839 6.894696
17.33 77.9428 7.217892
17.495 344.632 15.1585
17.66 90.035 7.761404
17.825 73.055 6.917293
17.99 93.2884 7.862633
18.155 76.7668 7.120136
18.32 87.8199 7.618765
18.485 83.9314 7.437679
18.65 89.4081 7.710016
18.815 86.9816 7.552867
18.98 140.359 9.711518
19.145 119.387 8.905268
19.31 101.948 8.192626
19.475 92.405 7.817861
19.64 87.753 7.637924
19.805 96.9878 8.049246
19.97 88.6624 7.678064
20.135 110.232 8.585346
20.3 95.7765 7.931277
20.465 96.4793 8.003367
20.63 96.0096 7.955116
20.795 98.8323 8.097470
20.96 104.494 8.340309
21.125 101.98 8.224655
21.29 118.282 8.884915
21.455 1302.6 29.4742
21.62 107.182 8.432895
21.785 107.53 8.451436
21.95 106.475 8.378605
22.115 85.6469 7.480254
22.28 110.007 8.532076
22.445 97.7974 8.003382
22.61 124.143 9.130605
22.775 656.247 20.9154
22.94 110.944 8.624897
23.105 98.0577 8.081746
23.27 95.1731 7.936111
23.435 93.4446 7.842231
23.6 95.4306 7.948552
23.765 92.1203 7.849936
23.93 99.451 8.126390
24.095 90.7711 7.765690
24.26 94.9439 7.970272
24.425 101.119 8.171563
24.59 107.71 8.457633
24.755 147.936 9.905529
24.92 97.5331 8.047356
25.085 97.0361 7.977032
25.25 104.971 8.388446
25.415 103.668 8.315585
25.58 106.839 8.436796
25.745 98.1351 8.065088
25.91 190.561 11.2505
26.075 108.681 8.487561
26.24 90.3868 7.729785
26.405 89.4305 7.737939
26.57 80.7607 7.353960
26.735 82.5972 7.400860
26.9 80.692 7.260383
27.065 93.359 7.890106
27.23 76.1818 7.085042
27.395 97.1476 8.033627
27.56 87.9408 7.634309
27.725 132.07 9.364561
27.89 102.627 8.251158
28.055 88.3458 7.962753
28.22 97.1568 8.300691
28.385 79.2849 7.588158
28.55 93.7324 8.226166
28.715 88.85 8.021788
28.88 120.795 9.334518
29.045 89.9692 8.026396
29.21 88.4871 7.962766
29.375 86.353 7.923280
29.54 88.204 8.005275
29.705 101.558 8.597768
29.87 103.073 8.632188
30.035 81.8341 8.040104
30.2 81.2079 7.995420
30.365 97.3142 8.758542
30.53 126.27 10.0403
30.695 92.34 8.543251
30.86 90.0318 8.416731
31.025 80.03 8.004755
31.19 92.2748 8.569753
31.355 95.1233 8.662618
31.52 109.439 9.317729
31.685 101.021 8.949372
31.85 102.144 9.032954
32.015 95.1381 9.104858
32.18 98.3876 9.202347
32.345 96.106 9.154930
32.51 103.186 9.572313
32.675 101.352 9.504315
32.84 96.1092 9.123810
33.005 8031.26 84.0199
33.17 104.157 9.528350
33.335 102.185 9.464644
33.5 98.256 9.262095
33.665 102.13 9.445366
33.83 113.483 10.0094
33.995 111.215 9.761720
34.16 95.54 9.648112
34.325 95.2134 9.617073
34.49 94.3093 9.506812
34.655 92.5961 9.476929
34.82 98.8958 9.789633
34.985 90.9633 9.430691
35.15 69.1094 8.144359
35.315 81.9347 8.901907
35.48 92.5467 9.514502
35.645 84.9379 9.036835
35.81 87.5714 9.205228
35.975 89.6042 9.250979
36.14 90.8015 9.908404
36.305 81.7157 9.434744
36.47 70.4273 8.686294
36.635 86.6251 9.680650
36.8 75.6725 9.037384
36.965 89.3267 9.852186
37.13 81.8336 9.402071
37.295 78.2367 9.280462
37.46 90.4915 9.921480
37.625 134.046 12.0306
37.79 80.4334 9.375548
37.955 91.0918 9.915512
38.12 79.9217 10.0586
38.285 93.4971 10.8927
38.45 115.53 12.1437
38.615 73.551 9.595576
38.78 72.8076 9.624751
38.945 79.1462 10.0417
39.11 90.7127 10.7068
39.275 73.8712 9.669130
39.44 75.5459 9.777675
39.605 87.9823 10.6318
39.77 95.1702 10.9527
39.935 69.1774 9.348842
40.1 77.5705 10.9629
40.265 67.6091 10.2171
40.43 109.232 12.9277
40.595 93.5534 12.0572
40.76 93.3819 12.1065
40.925 71.7236 10.504
41.09 67.166 10.1062
41.255 109.51 13.0218
41.42 66.9825 10.2295
41.585 81.4077 11.1592
41.75 132.167 14.3917
41.915 77.0558 10.9464
42.08 82.141 12.4884
42.245 79.1621 12.1716
42.41 86.9262 12.9289
42.575 84.7535 12.6562
42.74 70.1826 11.6268
42.905 66.017 11.2244
43.07 84.2881 12.7032
43.235 78.5893 12.1594
43.4 65.3343 11.1234
43.565 88.497 12.89
43.73 85.0021 12.5689
43.895 82.6129 12.5126
44.06 86.5487 15.1141
44.225 60.5762 12.6725
44.39 881.584 48.1739
44.555 76.9951 14.2431
44.72 57.1758 12.2959
44.885 63.3085 12.8812
45.05 58.5783 12.2166
45.215 56.247 12.1028
45.38 69.94 13.5846
45.545 1000.89 51.3561
45.71 81.4764 14.6073
45.875 63.2218 12.9085
46.04 51.2354 13.836
46.205 81.9046 17.7624
46.37 72.9509 16.7525
46.535 34.1405 11.1117
46.7 78.7121 17.3285
46.865 52.3252 13.7515
47.03 81.1611 17.6699
47.195 55.9976 14.6829
47.36 46.3661 13.3856
47.525 54.224 14.3859
47.69 66.6193 15.9002
47.855 71.1764 16.3548
48.02 55.6644 19.6053
48.185 47.1108 19.2329
48.35 56.1238 20.8846
48.515 66.9096 22.7603
48.68 44.8671 18.71
48.845 55.0007 20.7883
49.01 39.3163 17.5828
49.175 104.352 28.5891
49.34 56.6963 20.9643
49.505 76.3464 23.9547
49.67 52.9406 20.4019
49.835 59.217 21.5577
49.995 39.1948 17.3219