Folder: qxrd/Samples/PowderCalibrations (part 3)

File: Si_640d.xy
XYDATA
! 11BM APS Si SRM 640d
! File no. =              6098
! No. steps =             34500
! Scan time =             AUG 15, 2014 21:05
! Sample name =     	  NIST SRM 640d (Si)
! Composition =           Silicon (Si)
! Sample Comment =        0.8 mm dia Kapton
! Temp (K) =              295.6
! 2theta step (deg) =     0.001
! Time per step (sec) =   0.1
! 100/Ring Current[0] =   1.004
! Monitor I0 [0] =        86940.6
! Monitor I1 [0] =        71229.8
! Gonio._radius [mm] =    1000.0
! Calibration file =      11bmb_6097_2thcorr.calib
! 2Theta correction subtracted
! Normalization factor  = 7.8467
! Calibrated wavelength = 0.413848
! Fullprof format INSTRM=10 (x, y, sigma)
INTER 1.0 1.0  2 0.00100
! ---------------------------------------
! degrees       intensity        sigma
0.50000       323.9196        26.1318
0.69198       299.5846        25.1368
0.88395       249.2369        23.0152
1.07593       252.3082        23.1743
1.26790       213.9998        21.2459
1.45988       199.1769        20.5175
1.65185       176.4215        19.3116
1.84383       134.5572        16.8938
2.03580       138.1748        15.4762
2.22778       110.9985        13.7838
2.41975       123.8296        14.5097
2.61173        91.3750        12.4143
2.80370        99.4765        13.0388
2.99568       100.8642        13.1218
3.18765        92.8252        12.4955
3.37963        75.5190        11.4034
3.57160        96.9526        12.9692
3.76358       105.6004        13.4967
3.95555        93.9689        12.6542
4.14753       107.8230        12.3316
4.33951       117.7786        12.8010
4.53148       121.0685        12.9282
4.72346       135.8290        13.6871
4.91543       139.9549        14.0132
5.10741       149.5283        14.4598
5.29938       142.3647        14.1009
5.49136       139.9559        13.9894
5.68333       130.3499        13.5450
5.87531       127.3544        13.3484
6.06728       111.0202        11.3395
6.25926       100.5905        10.8497
6.45123       113.4775        11.4368
6.64321        91.3948        10.2844
6.83518       106.0690        11.1168
7.02716       112.9453        11.4241
7.21913        99.3668        10.6350
7.41111       128.3677        12.2429
7.60308      1446.11        41.1057
7.79506        98.7387        10.6900
7.98704        97.2000        10.6307
8.17901        84.8610         9.3423
8.37099        75.2729         8.7867
8.56296        72.0802         8.5330
8.75494        77.7468         8.9043
8.94691        76.2371         8.7794
9.13889        70.8348         8.5253
9.33086        71.0042         8.4220
9.52284        76.5697         8.8913
9.71481        78.7550         8.9422
9.90679        73.8986         8.6428
10.09876        78.0786         8.3758
10.29074        83.4036         8.6133
10.48271        74.9898         8.2396
10.67469        84.4573         8.7103
10.86666        70.9980         7.8931
11.05864        80.3169         8.4126
11.25061        77.4505         8.2827
11.44259        86.5344         8.7404
11.63457        94.9731         9.1858
11.82654       107.6649         9.7576
12.01852       108.4829         9.3493
12.21049       122.3372         9.8507
12.40247      1719.04        37.1710
12.59444       129.7655        10.1982
12.78642       117.2562         9.7361
12.97839       107.3928         9.3133
13.17037       104.0040         9.1696
13.36234        92.5051         8.6474
13.55432        87.7163         8.4232
13.74629        94.9260         8.7550
13.93827        95.4597         8.8184
14.13024       100.2108         8.5101
14.32222        94.1960         8.2864
14.51419     32011.1       152.3635
14.70617       109.9406         8.9598
14.89814       105.0550         8.6949
15.09012       100.6908         8.5312
15.28210        87.0169         7.9322
15.47407        87.4341         7.9756
15.66605        84.6578         7.7929
15.85802        88.2364         7.9708
16.05000        80.8797         7.3624
16.24197        81.8595         7.3571
16.43395        78.5863         7.1998
16.62592        87.6306         7.5981
16.81790        68.3068         6.7117
17.00987        80.2254         7.3041
17.20185        85.2959         7.4866
17.39382        97.8327         8.0945
17.58580       208.5675        11.7969
17.77777        85.0285         7.4681
17.96975        94.2766         7.9198
18.16172        86.1051         7.5302
18.35370        90.4594         7.7337
18.54567        75.4464         6.9947
18.73765       103.1129         8.2257
18.92963       110.5960         8.5664
19.12160     36031.8       154.9020
19.31358        96.4781         8.0208
19.50555       106.4143         8.3654
19.69753       115.6858         8.8134
19.88950       106.3762         8.3840
20.08148       113.5291         8.6636
20.27345       108.5680         8.5251
20.46543       127.2596         9.1837
20.65740       119.5727         8.9446
20.84938       126.4924         9.1621
21.04135       124.1687         9.0274
21.23333       129.3370         9.2874
21.42530       182.6300        11.0677
21.61728       182.9711        11.0374
21.80925       126.6548         9.1520
22.00123       119.5944         8.8689
22.19320       114.4498         8.7349
22.38518       131.8227         9.3987
22.57716       106.2812         8.3719
22.76913       182.3733        11.0471
22.96111       137.0587         9.5241
23.15308       127.8788         9.2730
23.34506       117.8051         8.8829
23.53703       110.3366         8.5591
23.72901       107.4599         8.4481
23.92098       107.3664         8.4566
24.11296       104.4725         8.3453
24.30493       125.2051         9.1708
24.49691       112.2715         8.6781
24.68888       130.5615         9.3303
24.88086      1366.08        30.1393
25.07283       120.7104         8.9357
25.26481       104.4895         8.3481
25.45678       112.2257         8.6776
25.64876       119.6061         8.8867
25.84073       119.4977         8.9452
26.03271       875.8580        24.1836
26.22469       112.8850         8.7427
26.41666       118.3760         8.9024
26.60864       113.1069         8.7145
26.80061       102.4140         8.2078
26.99259       104.7195         8.3898
27.18456       100.3679         8.1495
27.37654        87.7091         7.6645
27.56851       105.6535         8.3623
27.76049       113.9681         8.6978
27.95246       165.6959        10.5410
28.14444       119.9846         9.2999
28.33641       113.1366         8.9761
28.52839       108.9914         8.8545
28.72036        99.5100         8.4804
28.91234       292.2432        14.5284
29.10431        98.4899         8.4541
29.29629       103.7493         8.6356
29.48826       120.1672         9.3422
29.68024        95.8126         8.3269
29.87221        94.7644         8.2879
30.06419       114.7001         9.5528
30.25617       115.1447         9.5620
30.44814        97.9070         8.9005
30.64012       175.5967        11.7686
30.83209       104.3154         9.0814
31.02407       100.6661         8.8660
31.21604       116.4630         9.6172
31.40802       125.6430        10.0463
31.59999       430.5106        18.4483
31.79197       120.5864         9.7922
31.98394       106.3495         9.1337
32.17592       106.6654         9.6844
32.36789       111.1690         9.9616
32.55987       115.1042        10.0900
32.75184       114.5264        10.0764
32.94382       118.9009        10.1599
33.13579      8090.14        84.4884
33.32777       120.5552        10.2478
33.51974       126.3846        10.5647
33.71172       131.8687        10.8166
33.90370       116.5913        10.1492
34.09567       168.2047        12.8464
34.28765       127.0320        11.1464
34.47962       115.5645        10.6524
34.67160       108.8862        10.2668
34.86357       118.0398        10.6979
35.05555        93.1389         9.5020
35.24752       106.4119        10.1085
35.43950       108.8068        10.3105
35.63147       100.9951         9.8642
35.82345        93.0710         9.5395
36.01542        92.5444        10.0546
36.20740       101.1983        10.4127
36.39937       110.4393        10.9186
36.59135        90.6811         9.9430
36.78332        91.4647        10.0349
36.97530        92.6602         9.9776
37.16727        97.6000        10.3597
37.35925        96.1487        10.1845
37.55123        98.6272        10.3170
37.74320       377.6363        20.2526
37.93518       103.8732        10.5636
38.12715        90.9266        10.7439
38.31913       112.2102        11.9569
38.51110       265.1575        18.3235
38.70308        97.3032        11.0815
38.89505        94.4347        10.9558
39.08703       108.7829        11.7303
39.27900        99.3082        11.1511
39.47098        93.0641        10.8708
39.66295        82.2219        10.1885
39.85493      1125.82        37.8007
40.04690        89.1653        11.7371
40.23888        99.7685        12.3760
40.43085        96.3641        12.2858
40.62283      3001.35        68.3164
40.81480        97.4145        12.3361
41.00678       108.1905        13.0829
41.19876        97.4170        12.2229
41.39073       108.0584        12.9364
41.58271       101.6915        12.5184
41.77468        94.4216        12.1144
41.96666       106.7733        12.9887
42.15863        99.2297        13.7132
42.35061        85.0073        12.6437
42.54258        88.4180        12.8973
42.73456       105.2515        14.1456
42.92653        95.5081        13.4580
43.11851        85.1325        12.6552
43.31048        87.7424        12.9836
43.50246        84.5306        12.7156
43.69443        87.2364        12.9002
43.88641       106.0851        14.0322
44.07838        77.5862        14.2284
44.27036        92.7285        15.6215
44.46233       104.4420        16.3954
44.65431       101.6907        16.2543
44.84629       122.8843        17.9940
45.03826        84.6587        14.9480
45.23024        65.9231        13.1729
45.42221        67.3372        13.1933
45.61419       111.0306        17.0735
45.80616       109.1822        16.9307
45.99814        94.7413        19.1297
46.19011        66.6602        16.0579
46.38209       101.3674        19.7299
46.57406        68.6016        16.2186
46.76604        86.1760        18.2521
46.95801        79.1214        17.5264
47.14999        86.3768        18.2931
47.34196        84.2621        18.0939
47.53394        54.1313        14.4823
47.72591        60.0238        14.6586
47.91789        66.6514        15.9710
48.10986        47.7572        19.1125
48.30184        69.7745        23.3307
48.49382        42.4911        18.1438
48.68579        82.3717        25.2679
48.87777        81.7583        25.2573
49.06974        84.9670        25.6592
49.26172        88.7866        26.1099
49.45369        73.1288        23.5551
49.64567        82.2993        25.2777
49.83764        35.7180        16.4929
49.98862       562.0410        66.2593

File: ZnO_674b.xy
XYDATA
! Title:  11BM APS ZnO
INTER 1.0 1.0 2 0.0010
TEMP 295.0
! Fullprof format INSTRM=10 (x, y, sigma)
! Run no. =               4715
! No. steps =             34500
! Scan time =             MAY 31, 2014 23:52
! Sample name =     	  NIST SRM 674b (ZnO)
! Composition =           Zinc Oxide
! Sample Comment =        0.8 mm dia Kapton
! Temp (K) =              295.0
! 2theta step (deg) =     0.001
! Time per step (sec) =   0.1
! 100/Ring Current[0] =   1.025
! Monitor I0 [0] =        89933.5
! Monitor I1 [0] =        73484.6
! Gonio._radius [mm] =    1000.0
! Calibration file =      11bmb_4699_2thcorr.calib
! 2Theta correction subtracted
! Normalization factor  = 8.1812
! Calibrated wavelength = 0.413671
!
! 2theta, intensity, sigma(intensity)
2.000000 116.029 14.4765
2.159975 109.791 14.0344
2.319950 94.369 13.0533
2.479926 98.1221 13.2892
2.639901 85.917 12.4194
2.799876 74.552 11.4817
2.959851 82.2888 12.1653
3.119826 83.6382 12.1708
3.279801 74.119 11.4513
3.439777 63.5118 10.5965
3.599752 81.6293 10.8976
3.759727 91.0313 11.4961
3.919702 86.9939 11.2247
4.079677 104.529 12.1935
4.239653 102.319 12.265
4.399628 98.996 11.9665
4.559603 109.6 12.5405
4.719578 95.029 11.7019
4.879553 120.695 13.2551
5.039528 118.186 13.013
5.199504 115.886 12.9766
5.359479 98.7623 11.9213
5.519454 110.406 11.5717
5.679429 84.1948 9.984156
5.839404 83.1194 9.951594
5.999380 75.6852 9.468785
6.159355 83.7814 10.0509
6.319330 74.9876 9.556487
6.479305 98.1531 10.7769
6.639280 80.3558 9.906311
6.799255 80.1849 9.776507
6.959231 74.0745 9.419366
7.119206 64.0942 8.747546
7.279181 78.1319 9.789829
7.439156 64.7676 8.939993
7.599131 59.7821 7.883051
7.759107 66.242 8.301024
7.919082 48.5308 7.105291
8.079057 60.0892 7.937972
8.239032 73.9451 8.861193
8.399007 1184.28 35.5724
8.558982 115.099 11.1027
8.718958 69.3904 8.565492
8.878933 69.2277 8.535390
9.038908 161.201 13.0855
9.198883 114.149 11.0874
9.358858 84.9522 9.484477
9.518834 504.974 21.6091
9.678809 230.008 14.6103
9.838784 64.9165 7.619092
9.998759 68.8378 7.969479
10.1587 52.887 6.870419
10.3187 46.2289 6.482632
10.4787 53.5592 7.071216
10.6387 38.9128 5.965467
10.7986 50.4505 6.853559
10.9586 52.1357 6.946902
11.1186 51.331 6.819967
11.2786 46.5524 6.453448
11.4385 50.6185 6.771042
11.5985 42.6297 5.897278
11.7585 57.5233 6.850540
11.9185 40.249 5.764594
12.0784 55.5329 6.731118
12.2384 61.1311 7.147499
12.3984 818.124 26.2052
12.5584 77.0521 7.939263
12.7183 51.9357 6.525915
12.8783 50.1851 6.418379
13.0383 39.26 5.746686
13.1983 38.2444 5.561681
13.3582 52.1663 6.578737
13.5182 51.1621 6.161710
13.6782 50.9276 6.211002
13.8382 41.9942 5.588990
13.9981 49.2473 6.093474
14.1581 40.6058 5.581761
14.3181 66.9485 7.090977
14.4781 85.5289 8.001516
14.638 4824.26 60.4373
14.798 74.704 7.468643
14.958 63.7667 6.920250
15.118 62.9593 6.920068
15.2779 64.406 6.931633
15.4379 56.1552 6.519833
15.5979 65.0474 6.726059
15.7579 65.3823 6.656226
15.9178 86.9173 7.734926
16.0778 2316.94 39.9639
16.2378 87.2009 7.757357
16.3978 63.8148 6.591370
16.5577 66.3998 6.725546
16.7177 62.6338 6.486151
16.8777 271.037 13.673
17.0377 83.0378 7.592132
17.1976 229.212 12.5849
17.3576 139.854 9.858853
17.5176 8836.78 78.1997
17.6776 61.3037 6.475543
17.8375 64.4195 6.656143
17.9975 57.7228 6.277187
18.1575 55.6708 6.158239
18.3175 103.75 8.415362
18.4774 56.3243 6.217021
18.6374 61.8598 6.538454
18.7974 52.287 5.972572
18.9574 51.6492 5.929221
19.1173 53.1158 5.998546
19.2773 110.834 8.706787
19.4373 55.3031 6.091615
19.5973 58.6084 6.363079
19.7572 45.0345 5.567424
19.9172 44.1982 5.486304
20.0772 54.02 6.057900
20.2372 63.8951 6.602725
20.3971 45.4703 5.511095
20.5571 57.9122 6.295389
20.7171 49.2513 5.771560
20.8771 49.7584 5.836749
21.037 62.2225 6.513852
21.197 62.0152 6.530885
21.357 58.891 6.351904
21.517 64.7564 6.678545
21.6769 80.2341 7.397760
21.8369 602.364 20.3166
21.9969 72.7994 7.057874
22.1569 58.5374 6.220070
22.3168 76.234 7.251325
22.4768 93.9644 8.057547
22.6368 69.6168 6.835159
22.7968 93.2921 7.973101
22.9567 137.023 9.679874
23.1167 68.3533 6.833710
23.2767 63.6973 6.543546
23.4367 103.029 8.382261
23.5966 71.6349 6.967486
23.7566 59.1388 6.294035
23.9166 69.6533 6.869387
24.0766 64.7738 6.605530
24.2366 750.915 22.7288
24.3965 124.089 9.212403
24.5565 82.3218 7.450967
24.7165 65.012 6.664400
24.8765 70.3505 6.913569
25.0364 85.8898 7.643434
25.1964 54.8894 6.057892
25.3564 66.3934 6.737564
25.5164 121.294 9.127065
25.6763 62.6187 6.497640
25.8363 61.4583 6.459118
25.9963 68.6196 6.860809
26.1563 63.6684 6.598810
26.3162 174.97 10.9358
26.4762 72.303 7.080665
26.6362 61.3699 6.473640
26.7962 63.3119 6.561458
26.9561 54.5803 6.066676
27.1161 1134.26 27.9105
27.2761 53.0744 5.994445
27.4361 57.7028 6.219110
27.596 105.115 8.539508
27.756 58.675 6.402000
27.916 42.667 5.365508
28.076 51.7544 6.158403
28.2359 61.8661 6.772891
28.3959 59.199 6.614426
28.5559 83.5766 7.880820
28.7159 61.6904 6.798293
28.8758 239.275 13.3849
29.0358 75.0501 7.393610
29.1958 65.5582 6.883118
29.3558 59.1201 6.697255
29.5157 201.058 12.1896
29.6757 55.1074 6.344009
29.8357 57.2544 6.423249
29.9957 70.8624 7.471451
30.1556 51.9322 6.446063
30.3156 57.9432 6.771039
30.4756 78.9421 8.011691
30.6356 57.6983 6.820734
30.7955 70.4525 7.513782
30.9555 220.268 13.4258
31.1155 145.953 10.885
31.2755 69.3651 7.424799
31.4354 64.6329 7.242095
31.5954 65.8609 7.341042
31.7554 53.2664 6.515364
31.9154 60.6069 6.936749
32.0753 67.6904 7.762338
32.2353 133.096 10.9917
32.3953 63.7983 7.604029
32.5553 77.7622 8.376373
32.7152 62.2621 7.507677
32.8752 49.4532 6.587034
33.0352 48.4647 6.591181
33.1952 52.9565 6.887003
33.3551 59.7929 7.263988
33.5151 57.3695 7.179059
33.6751 68.6201 7.859924
33.8351 69.4055 7.892730
33.995 58.2699 7.613121
34.155 61.4186 7.766645
34.315 46.9561 6.764404
34.475 63.8201 8.000528
34.6349 53.8055 7.338068
34.7949 49.6397 6.956241
34.9549 78.36 8.796409
35.1149 47.9589 6.841579
35.2748 40.4716 6.272880
35.4348 72.261 8.367303
35.5948 57.8603 7.584964
35.7548 58.0055 7.596657
35.9147 50.6135 7.076143
36.0747 58.8086 7.969158
36.2347 54.869 7.772302
36.3947 40.4552 6.738075
36.5546 44.8157 7.056258
36.7146 36.3169 6.400155
36.8746 56.5306 7.788168
37.0346 70.2363 8.662738
37.1945 59.6207 8.077488
37.3545 133.308 12.1526
37.5145 60.8581 8.204917
37.6745 270.743 17.3755
37.8344 72.258 8.969377
37.9944 49.7889 8.072296
38.1544 54.4343 8.416647
38.3144 46.0089 7.741704
38.4743 61.7911 8.854020
38.6343 95.9698 11.2267
38.7943 54.1529 8.333764
38.9543 53.2128 8.259816
39.1142 63.4485 9.072448
39.2742 66.1615 9.174505
39.4342 54.3996 8.499459
39.5942 72.766 9.546744
39.7541 61.1872 8.944925
39.9141 61.8298 8.804608
40.0741 81.1163 11.3927
40.2341 51.8956 9.054402
40.394 64.8002 10.1419
40.554 61.854 9.902234
40.714 56.2401 9.521600
40.874 53.8916 9.304506
41.0339 48.8252 8.800360
41.1939 34.1634 7.395556
41.3539 67.6747 10.3735
41.5139 55.288 9.203593
41.6738 48.8049 8.943506
41.8338 45.011 8.414711
41.9938 49.4566 9.747866
42.1538 42.7861 9.137385
42.3137 38.2624 8.572076
42.4737 32.2628 7.884944
42.6337 52.3146 9.905687
42.7937 65.4321 11.1294
42.9536 38.3747 8.587754
43.1136 81.905 12.64
43.2736 43.0179 9.159283
43.4336 48.4581 9.570648
43.5935 47.2287 9.369436
43.7535 160.774 17.6779
43.9135 44.037 9.155276
44.0735 52.0226 11.5965
44.2334 46.3464 11.1598
44.3934 52.6702 11.9163
44.5534 34.2911 9.562253
44.7134 44.4687 11.0352
44.8733 47.2688 11.2748
45.0333 40.8595 10.6032
45.1933 91.2462 15.6798
45.3533 46.9252 11.1738
45.5132 243.691 25.5291
45.6732 49.8561 11.5891
45.8332 42.8845 10.641
45.9932 68.1302 16.2663
46.1531 34.9721 11.6678
46.3131 41.5491 12.5152
46.4731 42.519 12.8183
46.6331 37.7778 11.8997
46.7931 52.3395 14.2899
46.953 44.5685 13.0803
47.113 42.9421 12.9197
47.273 43.1821 12.8068
47.433 33.2781 11.3619
47.5929 44.9621 12.8899
47.7529 47.6339 13.5847
47.9129 51.4543 14.0806
48.0729 85.9956 26.0299
48.2328 53.5285 20.5229
48.3928 49.3075 18.8992
48.5528 183.263 38.0017
48.7128 104.344 28.677
48.8727 98.2594 27.5513
49.0327 55.1769 20.8649
49.1927 20.4741 10.8973
49.3527 59.8926 21.6965
49.5126 12.4538 9.769954
49.6726 71.9987 23.7728
49.8326 43.2525 18.2638
49.9896 8.616170 8.152978