Folder: qxrd/Samples/PowderCalibrations (part 2)

File: Al2O3_676a.xy
XYDATA
! Title: 11-BM data for Al2O3 SRM 676a
INTER 1.0 1.0 2 0.0010
TEMP 295.0
! Fullprof format INSTRM=10 (x, y, sigma)
! File no. =               4714
! No. steps =             34500
! Scan time =             MAY 31, 2014 22:53
! Sample name =     	  NIST SRM 676a (Al2O3)
! Composition =           Aluminium Oxide (Al2O3)
! Sample Comment =        0.8 mm dia Kapton
! Temp (K) =              295.6
! 2theta step (deg) =     0.001
! Time per step (sec) =   0.1
! 100/Ring Current[0] =   0.983
! Monitor I0 [0] =        92715.5
! Monitor I1 [0] =        75723.2
! Gonio._radius [mm] =    1000.0
! Calibration file =      11bmb_4699_2thcorr.calib
! 2Theta correction subtracted
! Normalization factor  = 8.3433
! Calibrated wavelength = 0.413671
!
! 2theta, intensity, sigma(intensity)
2.000000 151.392 16.3038
2.159975 136.788 15.524
2.319950 128.898 15.0339
2.479926 100.658 13.3279
2.639901 130.522 15.1283
2.799876 96.2777 12.9724
2.959851 104.07 13.4511
3.119826 101.824 13.2362
3.279801 87.995 12.3966
3.439777 108.533 13.7805
3.599752 107.665 12.4696
3.759727 100.04 11.849
3.919702 101.743 12.1059
4.079677 122.381 13.1133
4.239653 104.032 12.184
4.399628 120.818 13.1653
4.559603 131.006 13.6566
4.719578 116.052 12.7665
4.879553 120.042 13.1113
5.039528 142.181 14.145
5.199504 136.53 13.9462
5.359479 134.858 13.8076
5.519454 117.115 11.7673
5.679429 118.124 11.8944
5.839404 113.924 11.6333
5.999380 104.395 11.2175
6.159355 110.104 11.4291
6.319330 84.8079 10.0222
6.479305 92.9063 10.5673
6.639280 99.2966 10.8963
6.799255 1200.18 37.8431
6.959231 85.9244 10.0293
7.119206 83.3762 9.897988
7.279181 72.5095 9.205380
7.439156 62.8469 8.641184
7.599131 84.13 9.328817
7.759107 63.6882 8.081740
7.919082 67.5426 8.334535
8.079057 58.779 7.870976
8.239032 58.0976 7.751265
8.399007 53.734 7.365578
8.558982 56.6209 7.675318
8.718958 45.2517 6.825863
8.878933 54.1466 7.425821
9.038908 46.5465 6.935165
9.198883 84.755 9.454832
9.358858 202.76 14.6157
9.518834 52.6884 6.793686
9.678809 50.4906 6.700359
9.838784 53.5781 6.961701
9.998759 312.64 16.7968
10.1587 58.4783 7.327312
10.3187 51.046 6.767868
10.4787 46.9085 6.582709
10.6387 44.3746 6.316526
10.7986 44.7378 6.271562
10.9586 168.55 12.4037
11.1186 48.1954 6.664723
11.2786 123.946 10.6587
11.4385 277.422 15.8961
11.5985 60.7927 7.044985
11.7585 52.2273 6.548148
11.9185 57.7667 6.857916
12.0784 108.315 9.422625
12.2384 57.6654 6.936371
12.3984 46.5981 6.198269
12.5584 47.841 6.215731
12.7183 44.3813 6.009088
12.8783 43.8035 6.019745
13.0383 43.855 6.065129
13.1983 41.14 5.794804
13.3582 51.0975 6.380984
13.5182 63.8077 6.879545
13.6782 487.845 19.1691
13.8382 56.3741 6.447309
13.9981 46.3232 5.844479
14.1581 44.1467 5.659074
14.3181 47.2994 5.904575
14.4781 43.9689 5.656898
14.638 64.0822 6.908628
14.798 508.468 19.4776
14.958 93.6987 8.361018
15.118 47.8006 5.951464
15.2779 50.6893 6.156922
15.4379 50.4988 6.147504
15.5979 49.7872 5.794493
15.7579 144.116 9.889500
15.9178 48.4243 5.747989
16.0778 46.2607 5.553929
16.2378 39.1997 5.078657
16.3978 54.6643 6.143661
16.5577 54.4179 6.028088
16.7177 52.1775 5.938316
16.8777 163.136 10.4914
17.0377 83.4735 7.590605
17.1976 81.7271 7.442198
17.3576 331.316 15.0442
17.5176 59.6789 6.371537
17.6776 38.1741 5.132237
17.8375 56.1642 6.158224
17.9975 49.3322 5.752725
18.1575 51.803 5.947924
18.3175 47.9063 5.721380
18.4774 57.6412 6.150449
18.6374 69.6729 6.851456
18.7974 47.3619 5.673253
18.9574 47.6872 5.699899
19.1173 67.0644 6.730936
19.2773 320.459 14.7756
19.4373 49.6174 5.798262
19.5973 48.8022 5.734476
19.7572 56.4774 6.199116
19.9172 53.7318 5.986379
20.0772 69.2515 6.854428
20.2372 44.0854 5.456989
20.3971 43.4753 5.362111
20.5571 71.0488 6.971505
20.7171 71.6068 7.012280
20.8771 48.1729 5.661610
21.037 50.8818 5.899835
21.197 371.075 15.9689
21.357 51.2761 5.854974
21.517 49.531 5.739404
21.6769 245.691 12.991
21.8369 49.7883 5.771231
21.9969 76.1064 7.217001
22.1569 100.585 8.301808
22.3168 49.7088 5.799817
22.4768 49.1819 5.748371
22.6368 53.5795 6.085405
22.7968 101.435 8.353733
22.9567 86.5788 7.695529
23.1167 48.7312 5.733366
23.2767 48.5475 5.757509
23.4367 99.1775 8.222363
23.5966 45.2928 5.549221
23.7566 48.2019 5.704203
23.9166 629.578 20.786
24.0766 50.7014 5.847188
24.2366 88.7741 7.778456
24.3965 47.2476 5.638198
24.5565 52.769 6.004175
24.7165 51.1522 5.863107
24.8765 41.0562 5.266680
25.0364 40.2213 5.241288
25.1964 46.8854 5.579920
25.3564 48.3258 5.735613
25.5164 72.9099 7.073035
25.6763 48.5865 5.787904
25.8363 49.4084 5.804102
25.9963 64.8012 6.625558
26.1563 51.0689 5.866059
26.3162 229.811 12.5633
26.4762 83.5516 7.566235
26.6362 78.2756 7.346569
26.7962 47.9386 5.690522
26.9561 37.4978 5.022284
27.1161 58.1832 6.291609
27.2761 46.4048 5.603248
27.4361 56.954 6.234692
27.596 44.0604 5.473851
27.756 55.7487 6.176641
27.916 186.792 11.3621
28.076 67.5724 6.954533
28.2359 60.9327 6.642293
28.3959 52.4732 6.297173
28.5559 47.5041 5.942585
28.7159 56.5338 6.475545
28.8758 136.674 10.0339
29.0358 52.9495 6.320245
29.1958 44.9246 5.797598
29.3558 61.2403 6.761785
29.5157 55.2756 6.351605
29.6757 227.859 13.1304
29.8357 55.2845 6.493582
29.9957 234.558 13.8765
30.1556 72.9774 7.729160
30.3156 55.3427 6.666157
30.4756 50.1443 6.388671
30.6356 40.8333 5.867104
30.7955 41.5457 5.756756
30.9555 40.7267 5.773084
31.1155 49.7781 6.346863
31.2755 54.373 6.726476
31.4354 225.695 13.6352
31.5954 56.6495 6.836818
31.7554 69.5534 7.545440
31.9154 48.863 6.296866
32.0753 40.7497 6.056050
32.2353 50.3678 6.907502
32.3953 43.4739 6.381505
32.5553 50.6009 6.644273
32.7152 39.9377 6.040399
32.8752 36.2753 5.857683
33.0352 38.8635 5.913977
33.1952 45.2333 6.287185
33.3551 167.226 12.3407
33.5151 47.2061 6.541924
33.6751 51.075 6.819463
33.8351 41.48 6.111155
33.995 37.625 6.046900
34.155 44.2221 6.696571
34.315 52.6756 7.295327
34.475 45.6187 6.749755
34.6349 48.3408 7.068293
34.7949 47.3015 6.832043
34.9549 41.435 6.473973
35.1149 47.4544 6.983461
35.2748 45.8586 6.629590
35.4348 35.0401 5.909509
35.5948 40.8685 6.343320
35.7548 101.847 10.1162
35.9147 44.3753 6.460846
36.0747 242.69 16.5446
36.2347 44.139 6.990560
36.3947 306.243 18.6206
36.5546 44.9492 7.032934
36.7146 57.5144 8.040708
36.8746 47.9253 7.359848
37.0346 41.2087 6.870394
37.1945 35.8557 6.273117
37.3545 35.3789 6.310569
37.5145 200.324 14.9999
37.6745 58.1052 8.096291
37.8344 47.8051 7.161506
37.9944 45.2065 7.571147
38.1544 46.3818 7.679523
38.3144 50.694 8.140925
38.4743 61.1866 9.175887
38.6343 123.123 12.6522
38.7943 36.7149 6.918768
38.9543 41.9232 7.321902
39.1142 41.9041 7.452027
39.2742 51.0555 8.158242
39.4342 41.0508 7.247127
39.5942 50.4812 8.158150
39.7541 39.2139 7.021811
39.9141 44.6429 7.694804
40.0741 42.3452 8.390774
40.2341 56.0552 9.637414
40.394 70.085 10.6322
40.554 72.8515 10.994
40.714 63.8989 10.1448
40.874 37.7201 7.606748
41.0339 35.2573 7.564960
41.1939 26.8123 6.675286
41.3539 61.2721 9.887635
41.5139 26.3172 6.569443
41.6738 37.4936 7.758560
41.8338 183.842 17.3865
41.9938 42.2641 9.054272
42.1538 43.5589 9.343585
42.3137 43.7678 9.223168
42.4737 52.3394 10.3791
42.6337 37.0296 8.708647
42.7937 30.6428 7.787193
42.9536 106.58 14.5086
43.1136 189.396 19.4793
43.2736 45.245 9.398938
43.4336 33.8436 8.025278
43.5935 30.4278 7.686400
43.7535 39.8124 8.941633
43.9135 52.346 10.247
44.0735 26.8798 8.668174
44.2334 63.0799 13.2495
44.3934 64.7725 13.4284
44.5534 33.8313 9.442743
44.7134 26.5445 8.435255
44.8733 34.0608 9.750235
45.0333 31.7268 9.337553
45.1933 27.7712 8.732440
45.3533 55.4633 12.3969
45.5132 28.9097 8.903213
45.6732 34.6715 9.735304
45.8332 25.0834 7.985628
45.9932 125.312 22.4172
46.1531 85.1372 18.3815
46.3131 25.4575 10.1114
46.4731 28.0921 10.606
46.6331 28.0444 10.3472
46.7931 102.076 20.0723
46.953 117.415 21.6548
47.113 23.9838 9.744286
47.273 20.9939 8.710642
47.433 22.2437 9.447447
47.5929 29.8146 10.8858
47.7529 36.2311 12.0394
47.9129 35.7231 11.9516
48.0729 48.0629 19.7487
48.2328 30.8106 15.7641
48.3928 37.4671 17.2114
48.5528 27.7528 14.9893
48.7128 26.213 14.4197
48.8727 44.6239 18.7168
49.0327 48.9797 19.9775
49.1927 43.086 18.4569
49.3527 29.4427 15.4551
49.5126 21.0485 13.0369
49.6726 19.8097 12.65
49.8326 37.6384 17.3782
49.9896 25.2399 14.3261

File: CeO2_674b.xy
XYDATA
! Title:  11BM APS CeO2
INTER 1.0 1.0 2 0.0010
TEMP 295.0
! Fullprof format INSTRM=10 (x, y, sigma)
! File no. =               4717
! No. steps =             34500
! Scan time =             JUN 01, 2014 01:51
! Sample name =           NIST SRM 674b (CeO2)
! Composition =           Cerium(IV) oxide
! Sample Comment =        0.8 mm dia Kapton
! Temp (K) =              295.0
! 2theta step (deg) =     0.001
! Time per step (sec) =   0.1
! 100/Ring Current[0] =   0.982
! Monitor I0 [0] =        92926.4
! Monitor I1 [0] =        75877.3
! Gonio._radius [mm] =    1000.0
! Calibration file =      11bmb_4699_2thcorr.calib
! 2Theta correction subtracted
! Calibrated wavelength = 0.413671
! Normalization factor  = 8.3538
!
! 2theta, intensity, sigma(intensity)
2.000000 114.403 14.2031
2.159975 126.587 14.9235
2.319950 84.8779 12.3135
2.479926 103.181 13.4688
2.639901 67.608 10.9302
2.799876 88.6157 12.4114
2.959851 84.5592 12.3693
3.119826 68.8929 10.9328
3.279801 75.0181 11.5244
3.439777 91.5239 12.6368
3.599752 86.8844 11.0283
3.759727 89.641 11.3068
3.919702 88.0376 11.1754
4.079677 78.7857 10.6214
4.239653 85.8827 11.1132
4.399628 117.106 12.9232
4.559603 118.993 13.0341
4.719578 106.999 12.2722
4.879553 105.981 12.3834
5.039528 93.9939 11.5422
5.199504 120.177 13.0757
5.359479 101.429 12.0373
5.519454 119.441 11.9094
5.679429 123.142 12.1087
5.839404 93.3801 10.5164
5.999380 86.6652 10.2749
6.159355 90.9595 10.3741
6.319330 96.3751 10.6654
6.479305 84.5199 9.956441
6.639280 69.9284 9.119601
6.799255 81.545 9.894130
6.959231 100.151 10.9067
7.119206 106.695 11.2192
7.279181 131.343 12.5366
7.439156 233.288 16.5462
7.599131 92472.2 312.208
7.759107 188.911 14.125
7.919082 108.611 10.5893
8.079057 91.5749 9.816416
8.239032 105.069 10.5601
8.399007 84.825 9.463513
8.558982 89.6305 9.663705
8.718958 589.069 24.9305
8.878933 131.862 11.832
9.038908 77.2067 8.981330
9.198883 68.413 8.465331
9.358858 65.7943 8.318626
9.518834 61.4741 7.491317
9.678809 64.8976 7.631018
9.838784 69.2975 7.950605
9.998759 59.4739 7.318526
10.1587 73.3249 8.172877
10.3187 76.4515 8.286331
10.4787 54.0697 6.883293
10.6387 62.6603 7.512784
10.7986 61.268 7.457901
10.9586 63.4311 7.567659
11.1186 63.8626 7.649132
11.2786 74.3097 8.176173
11.4385 61.8607 7.448122
11.5985 84.9825 8.447338
11.7585 87.8025 8.476134
11.9185 74.6423 7.832886
12.0784 102.404 9.185931
12.2384 160.314 11.4608
12.3984 21752.8 134.16
12.5584 180.411 12.2479
12.7183 119.372 9.922928
12.8783 94.3741 8.860229
13.0383 86.7431 8.449241
13.1983 101.619 9.126458
13.3582 88.0611 8.452773
13.5182 78.2301 7.616598
13.6782 93.6824 8.363550
13.8382 95.672 8.433532
13.9981 100.763 8.635186
14.1581 93.6927 8.323503
14.3181 120.219 9.491464
14.4781 336.172 15.8217
14.638 531.138 19.9116
14.798 119.94 9.494090
14.958 106.013 8.856734
15.118 137.28 10.0931
15.2779 220.211 12.8558
15.4379 90.1248 8.161221
15.5979 75.3941 7.139379
15.7579 71.5504 6.963032
15.9178 75.0859 7.117182
16.0778 67.3728 6.746106
16.2378 81.9333 7.510405
16.3978 75.3283 7.083132
16.5577 71.8349 6.988161
16.7177 69.8004 6.904513
16.8777 70.5911 6.889439
17.0377 65.2504 6.650754
17.1976 83.4304 7.530314
17.3576 85.2526 7.617415
17.5176 176.543 10.993
17.6776 138.541 9.784712
17.8375 90.4146 7.854435
17.9975 89.4573 7.775986
18.1575 89.1988 7.838688
18.3175 89.0358 7.751294
18.4774 86.2931 7.682071
18.6374 87.5315 7.701019
18.7974 108.937 8.620853
18.9574 120.825 9.083235
19.1173 402.006 16.659
19.2773 205.159 11.8894
19.4373 137.387 9.674602
19.5973 184.46 11.204
19.7572 225.156 12.3977
19.9172 103.086 8.330681
20.0772 105.867 8.535421
20.2372 108.318 8.613916
20.3971 105.246 8.487255
20.5571 98.1432 8.162828
20.7171 101.591 8.306264
20.8771 99.2964 8.227075
21.037 134.891 9.655218
21.197 116.003 8.932646
21.357 114.683 8.856255
21.517 370.318 15.8941
21.6769 201.204 11.6862
21.8369 124.955 9.190403
21.9969 109.797 8.650617
22.1569 106.305 8.505211
22.3168 100.507 8.216067
22.4768 102.792 8.373579
22.6368 114.25 8.793307
22.7968 145.202 9.957667
22.9567 560.972 19.6265
23.1167 123.519 9.136730
23.2767 101.544 8.264144
23.4367 94.019 8.002666
23.5966 100.597 8.285227
23.7566 77.7341 7.308868
23.9166 87.9663 7.737075
24.0766 91.959 7.881410
24.2366 87.2562 7.664594
24.3965 88.3825 7.775219
24.5565 95.062 8.043116
24.7165 110.164 8.690095
24.8765 126.963 9.309608
25.0364 186.24 11.2505
25.1964 106.387 8.449626
25.3564 102.616 8.299810
25.5164 100.733 8.273716
25.6763 121.392 9.115329
25.8363 129.257 9.390386
25.9963 147.611 10.0545
26.1563 3263.17 47.1971
26.3162 143.483 9.913761
26.4762 450.416 17.5573
26.6362 141.072 9.796303
26.7962 119.707 8.995282
26.9561 112.737 8.731412
27.1161 103.161 8.419763
27.2761 98.8335 8.221880
27.4361 100.33 8.279157
27.596 111.864 8.728510
27.756 118.677 8.966752
27.916 226.419 12.4177
28.076 132.581 9.909843
28.2359 114.344 9.140042
28.3959 102.275 8.760825
28.5559 99.2809 8.583931
28.7159 110.636 9.066398
28.8758 95.9843 8.350800
29.0358 7611.98 75.2277
29.1958 131.347 9.867140
29.3558 1230.57 30.2233
29.5157 117.313 9.346411
29.6757 103.57 8.716051
29.8357 86.1792 7.997745
29.9957 99.7485 9.052819
30.1556 103.105 9.226932
30.3156 101.513 9.076914
30.4756 111.932 9.585720
30.6356 113.232 9.599823
30.7955 106.348 9.358716
30.9555 100.764 9.050960
31.1155 95.8808 8.810365
31.2755 125.267 10.0932
31.4354 111.377 9.586697
31.5954 197.583 12.6205
31.7554 203.488 12.854
31.9154 161.835 11.4406
32.0753 135.605 11.0038
32.2353 118.11 10.3632
32.3953 121.282 10.3976
32.5553 120.82 10.4477
32.7152 101.677 9.527501
32.8752 129.189 10.7639
33.0352 133.329 10.939
33.1952 432.589 19.8301
33.3551 159.765 11.9656
33.5151 134.306 11.0315
33.6751 130.055 10.9395
33.8351 130.497 10.7951
33.995 145.592 12.0886
34.155 6497.09 80.7071
34.315 127.763 11.3524
34.475 108.147 10.3731
34.6349 109.285 10.5203
34.7949 97.9618 9.809755
34.9549 87.3194 9.290947
35.1149 105.3 10.2072
35.2748 98.716 9.848311
35.4348 106.826 10.2656
35.5948 471.389 21.7323
35.7548 110.864 10.5176
35.9147 103.905 10.308
36.0747 96.6151 10.352
36.2347 94.5069 10.2413
36.3947 134.95 12.3337
36.5546 132.962 12.1557
36.7146 441.248 22.0745
36.8746 123.942 11.7498
37.0346 105.358 10.8049
37.1945 98.7124 10.4051
37.3545 94.3207 10.2085
37.5145 108.167 10.9611
37.6745 135.006 12.3023
37.8344 1988.61 47.0814
37.9944 108.42 11.9434
38.1544 119.394 12.4244
38.3144 108.31 11.9299
38.4743 122.172 12.5611
38.6343 715.26 30.5856
38.7943 133.822 13.1161
38.9543 269.794 18.7
39.1142 101.968 11.6012
39.2742 98.9207 11.4149
39.4342 106.527 11.7981
39.5942 106.51 11.7284
39.7541 94.2991 11.0592
39.9141 156.398 14.2711
40.0741 117.738 13.7991
40.2341 122.116 14.0874
40.394 118.781 13.8143
40.554 115.891 13.4054
40.714 344.951 23.5977
40.874 146.316 15.2401
41.0339 458.59 27.0141
41.1939 138.407 14.9497
41.3539 117.092 13.8202
41.5139 98.7422 12.5123
41.6738 107.581 13.0235
41.8338 115.578 13.5594
41.9938 305.397 24.3496
42.1538 104.187 14.1478
42.3137 94.0668 13.3956
42.4737 98.5916 13.84
42.6337 110.409 14.6485
42.7937 367.43 26.7784
42.9536 109.684 14.6161
43.1136 101.825 13.9948
43.2736 84.0917 12.6711
43.4336 104.53 14.4493
43.5935 96.1865 13.573
43.7535 98.2651 13.9852
43.9135 101.091 13.9088
44.0735 108.229 17.06
44.2334 83.9098 14.9333
44.3934 132.317 19.051
44.5534 107.654 17.0992
44.7134 2825.59 87.7436
44.8733 106.909 17.0315
45.0333 107.02 17.041
45.1933 125.274 18.3558
45.3533 114.294 17.6786
45.5132 87.6089 15.3264
45.6732 97.882 16.2498
45.8332 276.885 27.5493
45.9932 125.135 22.1732
46.1531 102.012 19.9171
46.3131 136.584 23.1591
46.4731 130.472 22.6468
46.6331 209.034 28.6066
46.7931 496.997 44.1414
46.953 93.1679 19.1286
47.113 110.15 20.8179
47.273 86.8565 18.4107
47.433 80.0881 17.6626
47.5929 72.8068 16.9067
47.7529 99.606 19.7296
47.9129 131.484 22.6836
48.0729 72.1791 23.9285
48.2328 116.293 30.3421
48.3928 3436.84 165.263
48.5528 154.204 34.9977
48.7128 145.842 33.9534
48.8727 114.259 30.0585
49.0327 79.6795 25.1717
49.1927 129.309 31.984
49.3527 79.5862 25.1674
49.5126 1806.37 119.909
49.6726 144.495 33.9084
49.8326 163.989 35.9596
49.9896 103.213 28.6763

File: Cr2O3_674b.xy
XYDATA
! Title: 11BM APS Cr2O3 SRM 674b
INTER 1.0 1.0 2 0.0010
TEMP 295.0
! Fullprof format INSTRM=10 (x, y, sigma)
! File no. =               4716
! No. steps =             34500
! Scan time =             JUN 01, 2014 00:52
! Sample name =     	   NIST SRM 674b (Cr2O3)
! Composition =            Chromium(III) oxide
! Sample Comment =         0.8 mm dia Kapton
! Temp (K) =              295.0
! 2theta step (deg) =     0.001
! Time per step (sec) =   0.1
! 100/Ring Current[0] =   0.984
! Monitor I0 [0] =        92666.8
! Monitor I1 [0] =        75642.1
! Gonio._radius [mm] =    1000.0
! Calibration file =      11bmb_4699_2thcorr.calib
! 2Theta correction subtracted
! Normalization factor  = 8.3664
! Calibrated wavelength = 0.413671
!
! 2theta, intensity, sigma(intensity)
2.000000 148.184 16.2272
2.159975 123.855 14.7783
2.319950 115.784 14.2864
2.479926 91.3213 12.6176
2.639901 107.084 13.8403
2.799876 104.172 13.5917
2.959851 114.591 14.1997
3.119826 99.2517 13.1526
3.279801 84.1184 11.9994
3.439777 118.491 14.4521
3.599752 80.3172 10.7178
3.759727 95.4522 11.6133
3.919702 122.96 13.2921
4.079677 109.74 12.4983
4.239653 98.8341 11.9224
4.399628 112.688 12.6825
4.559603 132.431 13.5753
4.719578 126.066 13.4263
4.879553 109.654 12.3457
5.039528 128.48 13.5817
5.199504 137.086 14.053
5.359479 127.268 13.5122
5.519454 141.717 13.0089
5.679429 101.22 10.9004
5.839404 98.9676 10.9405
5.999380 98.9345 10.777
6.159355 98.7206 10.923
6.319330 105.639 11.2296
6.479305 501.952 24.4327
6.639280 144.415 13.1264
6.799255 114.604 11.6652
6.959231 110.194 11.4836
7.119206 90.4951 10.3761
7.279181 97.4795 10.7968
7.439156 96.4257 10.6377
7.599131 79.4721 9.084503
7.759107 74.6615 8.792828
7.919082 81.0089 9.191102
8.079057 70.5709 8.619230
8.239032 84.3775 9.378983
8.399007 70.8317 8.631195
8.558982 70.9011 8.631574
8.718958 119.664 11.2348
8.878933 4077.56 65.5759
9.038908 141.588 12.0906
9.198883 106.141 10.6167
9.358858 108.071 10.6087
9.518834 664.977 24.6217
9.678809 166.798 12.3614
9.838784 74.3791 8.216821
9.998759 63.3867 7.599813
10.1587 70.9904 8.090384
10.3187 68.6015 7.757693
10.4787 2327.55 46.236
10.6387 79.7181 8.562486
10.7986 102.24 9.664662
10.9586 359.445 18.081
11.1186 76.8341 8.367342
11.2786 65.3335 7.719422
11.4385 72.7201 8.194995
11.5985 2656.52 46.9687
11.7585 80.0947 8.061154
11.9185 67.3505 7.474912
12.0784 74.0786 7.825349
12.2384 66.4007 7.375754
12.3984 66.2007 7.390043
12.5584 60.9006 7.031583
12.7183 71.1817 7.602583
12.8783 90.3769 8.578123
13.0383 499.37 20.3555
13.1983 106.098 9.364791
13.3582 84.6662 8.402688
13.5182 71.9419 7.269381
13.6782 78.4133 7.616980
13.8382 77.1046 7.570729
13.9981 105.202 8.801042
14.1581 1073.76 28.3781
14.3181 197.801 12.1076
14.4781 79.4351 7.739116
14.638 82.6053 7.856072
14.798 81.0901 7.798396
14.958 93.2838 8.344049
15.118 121.623 9.540040
15.2779 80.0442 7.727766
15.4379 69.8261 7.133395
15.5979 74.4077 7.086587
15.7579 76.2524 7.193949
15.9178 70.0171 6.921561
16.0778 106.603 8.487343
16.2378 17134.8 108.496
16.3978 125.102 9.264765
16.5577 406.227 16.6553
16.7177 144.321 9.894555
16.8777 72.6802 7.052438
17.0377 87.9834 7.737532
17.1976 70.5767 6.926871
17.3576 76.1654 7.195952
17.5176 70.812 6.945182
17.6776 72.0346 7.011377
17.8375 91.978 7.865443
17.9975 84.9548 7.594977
18.1575 75.4136 7.141013
18.3175 335.508 15.1892
18.4774 279.591 13.8557
18.6374 61.3059 6.467604
18.7974 70.5864 6.904168
18.9574 73.6493 7.086969
19.1173 234.919 12.6619
19.2773 132.594 9.532005
19.4373 84.164 7.555394
19.5973 108.268 8.650765
19.7572 110.105 8.626731
19.9172 869.942 24.3753
20.0772 125.393 9.234067
20.2372 111.718 8.748014
20.3971 92.4457 7.978886
20.5571 84.3596 7.603204
20.7171 475.014 18.0776
20.8771 81.4673 7.480341
21.037 1224.05 28.9977
21.197 2708.2 43.0756
21.357 78.3226 7.215266
21.517 89.21 7.754129
21.6769 83.9564 7.552047
21.8369 141.5 9.816588
21.9969 190.129 11.4105
22.1569 79.7267 7.412195
22.3168 87.4549 7.693981
22.4768 306.062 14.488
22.6368 82.0356 7.489257
22.7968 108.599 8.627767
22.9567 194.223 11.5319
23.1167 111.281 8.743427
23.2767 177.758 11.0431
23.4367 77.5312 7.246674
23.5966 78.1132 7.294691
23.7566 71.1937 6.985499
23.9166 68.6624 6.821198
24.0766 75.2573 7.120992
24.2366 63.7201 6.537187
24.3965 81.5782 7.455476
24.5565 83.2707 7.553733
24.7165 67.1657 6.700616
24.8765 90.9777 7.851130
25.0364 76.2967 7.158853
25.1964 316.042 14.6846
25.3564 99.9898 8.191067
25.5164 1272.09 29.5141
25.6763 91.3502 7.939774
25.8363 73.696 7.099789
25.9963 81.1036 7.414506
26.1563 84.3868 7.614196
26.3162 104.931 8.468068
26.4762 83.0793 7.531442
26.6362 176.413 10.9789
26.7962 113.692 8.771074
26.9561 320.433 14.8777
27.1161 104.553 8.423688
27.2761 75.1936 7.099668
27.4361 101.393 8.259142
27.596 470.677 17.926
27.756 99.8376 8.226240
27.916 86.2664 7.625295
28.076 124.057 9.582594
28.2359 99.0498 8.503403
28.3959 403.903 17.3285
28.5559 83.7077 7.843945
28.7159 659.334 22.1975
28.8758 109.079 9.001325
29.0358 170.566 11.2872
29.1958 82.8204 7.835375
29.3558 72.4728 7.368850
29.5157 77.0514 7.520413
29.6757 84.4396 7.840171
29.8357 80.3266 7.705192
29.9957 129.926 10.2775
30.1556 101.56 9.079258
30.3156 210.429 12.9698
30.4756 88.2558 8.447094
30.6356 68.1928 7.421037
30.7955 81.8224 8.085642
30.9555 108.267 9.394856
31.1155 88.7093 8.476446
31.2755 83.091 8.267855
31.4354 77.9396 8.001138
31.5954 72.233 7.688777
31.7554 83.7135 8.218190
31.9154 1689.46 37.1933
32.0753 108.7 9.898552
32.2353 80.7711 8.546945
32.3953 94.6696 9.343713
32.5553 76.367 8.319462
32.7152 62.9188 7.560070
32.8752 69.5452 7.873066
33.0352 93.2922 9.127287
33.1952 80.8609 8.526581
33.3551 125.66 10.6054
33.5151 124.136 10.5642
33.6751 90.6465 9.053274
33.8351 78.2271 8.385498
33.995 72.215 8.487510
34.155 94.8494 9.657746
34.315 87.9353 9.297502
34.475 133.38 11.5553
34.6349 100.256 10.1328
34.7949 1638.02 40.5738
34.9549 141.738 12.0096
35.1149 104.193 10.2909
35.2748 445.898 21.1537
35.4348 104.082 10.1888
35.5948 90.4705 9.574238
35.7548 83.9848 9.196031
35.9147 1025.67 32.0672
36.0747 394.094 21.0317
36.2347 71.0724 8.804280
36.3947 78.0321 9.386340
36.5546 110.022 11.0708
36.7146 125.697 11.716
36.8746 74.3955 9.072897
37.0346 150.363 12.9497
37.1945 157.562 13.3379
37.3545 96.2739 10.4124
37.5145 902.119 31.6531
37.6745 76.0947 9.108659
37.8344 65.1466 8.385876
37.9944 74.7027 9.808947
38.1544 65.6162 9.133021
38.3144 86.0617 10.6315
38.4743 154.948 14.3002
38.6343 90.5692 10.8911
38.7943 396.027 22.7451
38.9543 133.876 13.2322
39.1142 75.5304 9.856698
39.2742 70.7938 9.480082
39.4342 88.6267 10.7677
39.5942 148.046 13.9685
39.7541 63.3171 9.055695
39.9141 93.558 11.0255
40.0741 695.539 33.3769
40.2341 88.8735 11.8799
40.394 73.8123 10.8435
40.554 101.219 12.7244
40.714 93.6846 12.2358
40.874 97.854 12.6439
41.0339 814.67 36.0438
41.1939 258.986 20.3602
41.3539 127.612 14.2503
41.5139 68.093 10.4319
41.6738 103.037 12.8341
41.8338 57.0966 9.380547
41.9938 139.87 16.6611
42.1538 95.968 13.6369
42.3137 91.9596 13.241
42.4737 549.462 32.6729
42.6337 342.917 25.7908
42.7937 76.7137 12.2843
42.9536 69.4403 11.5917
43.1136 66.0385 11.3844
43.2736 81.3169 12.5652
43.4336 430.34 28.9313
43.5935 73.3335 11.7867
43.7535 83.5569 12.7226
43.9135 83.3162 12.6888
44.0735 166.607 21.2955
44.2334 115.944 17.7388
44.3934 89.7456 15.5877
44.5534 255.956 26.496
44.7134 192.663 22.8712
44.8733 105.726 16.9653
45.0333 94.9269 16.1396
45.1933 81.5647 14.7978
45.3533 77.3186 14.4418
45.5132 70.816 13.7438
45.6732 202.717 23.4253
45.8332 54.4214 12.056
45.9932 96.893 19.4881
46.1531 86.6539 18.3925
46.3131 154.224 24.5909
46.4731 64.8143 15.935
46.6331 52.5154 14.3601
46.7931 147.394 24.0605
46.953 244.249 30.926
47.113 117.695 21.2085
47.273 97.8559 19.4348
47.433 74.3509 16.9794
47.5929 52.7932 14.3593
47.7529 71.8316 16.7818
47.9129 111.098 20.8118
48.0729 168.459 36.6488
48.2328 65.5236 22.8489
48.3928 62.6719 22.1762
48.5528 60.355 21.8976
48.7128 85.7637 26.096
48.8727 48.5847 19.6598
49.0327 119.397 30.837
49.1927 199.993 39.8798
49.3527 52.6825 20.4734
49.5126 75.0233 24.4383
49.6726 59.0006 21.6375
49.8326 53.5892 20.6089
49.9896 440.858 59.1681